File: output/3.01_averaged-data.csv
Wavelength (nm),ABS_mean,ABS_std,HDPE_mean,HDPE_std,LDPE_mean,LDPE_std,PA6_mean,PA6_std,PA66_mean,PA66_std,PC_mean,PC_std,PET_mean,PET_std,PMMA_mean,PMMA_std,PP_mean,PP_std,PS_mean,PS_std,PVC_mean,PVC_std
1550.0,59114.0,1519.82,46655.04,15608.8,50746.7,6018.14,129.0,148.306,371.1,414.593,64633.2,103.302,42134.1,19610.5,44593,23807.4,44820.9,22445.6,59699.5,3250.87,47300.4,23918.1
1553.15,59759.6,1532.18,46131.6,16697.2,50682.9,6366.89,11.9,31.024,78.85,154.463,64670.4,99.8453,41306.4,20419.2,44526.1,24236.7,44481.3,22889.3,58958.9,3738.08,47097.5,24376.6
1556.3,60649.2,1440.35,45742.96,18036.9,50816.8,6718.75,588.8,289.996,873.95,628.658,64616.6,93.6053,40924.3,20694.2,44719.9,24155.8,44569.5,22868.7,58305.1,4522.63,47271.3,24347.8
1559.45,61690.2,1263.84,45508.08,19501.4,51139.7,7103.08,1814.3,690.1,2675.45,1226.2,64519.9,86.2633,41030.9,20529.8,45189.9,23608.3,45082.0,22423.2,57731.9,5644.03,47792.4,23874.6
1562.6,62766.8,1029.59,45038.82,20798.6,51638.5,7487.15,3617.9,1164.99,5364.1,1878.59,64438.1,79.6473,41668.4,20022.6,45950.7,22655.6,46004.9,21606.3,57233.8,6979.46,48618.7,23010.3
1565.75,63759.6,767.119,45593.32,22110.4,52295.7,7778.82,5909.0,1648.54,8786.2,2509.93,64422.8,74.3286,42854.0,19248,47006.8,21371.3,47306,20482.6,56807.9,8345.93,49696.9,21812
1568.9,64569.0,505.455,45956.4,22906.7,53090.1,7865.87,8578.2,2079.42,12759.5,3041.42,64506.9,69.9335,44560.8,18252.2,48344.6,19836.1,48929.4,19122.9,56456.3,9572.11,50965.8,20337
1572.05,65131.8,268.524,46547.64,23196.8,53996.7,7660.22,11501.6,2410.79,17081.7,3416.7,64694.4,63.9236,46705.8,17059.7,49925.6,18134.4,50791.6,17601.2,56187.1,10534.9,52359.2,18644.4
1575.2,65427.8,80.9009,47361.12,22939.8,54987.0,7126.27,14547.8,2617.47,21541.65,3615.34,64956.6,54.6884,49146.4,15694.1,51683.6,16351.6,52785.0,15992,56010.9,11169.3,53808.3,16799.9
1578.35,65483.4,103.2,47845.7,22058,56030.6,6292.1,17584.3,2697.38,25931.55,3661.86,65236.1,41.0287,51693.4,14198.8,53526,14570.9,54785.1,14368.5,55938.1,11472.2,55245.5,14879.5
1581.5,65355.6,203.8,49545.64,21001.5,57095.4,5240.66,20488.8,2670.02,30061.4,3621.6,65455.6,22.5094,54132.0,12646.2,55341,12870.3,56663.7,12798.8,55972.9,11494,56607.3,12969.8
1584.65,65121.2,271.707,50819.56,19582.3,58149.0,4094.64,23156.5,2568.2,33773.5,3582.46,65535.0,0.0,56252.7,11132,57008,11316.2,58302.8,11342,56106.4,11322.3,57837.3,11163.8
1587.8,64849.6,312.501,52128.0,18091.4,59160.3,2990.61,25510.3,2434.05,36953.4,3618.86,65401.9,25.2062,57883.1,9753.65,58410.4,9956.71,59610.9,10044.2,56311.7,11060.1,58889.3,9549.39
1590.94,64585.0,338.176,53397.08,16696.4,60100.1,2058.35,27507.9,2306.9,39540.05,3752.29,65012.5,51.4584,58916.0,8582.84,59450.3,8816.38,60534.3,8933.54,56539.5,10803.8,59730.5,8196.76
1594.09,64331.6,358.598,54554.88,15530.8,60943.5,1398.39,29145.2,2220.84,41529.0,3945.91,64352.9,77.0537,59326.6,7644.82,60060.3,7894.32,61064,8020.17,56719.1,10622.3,60342.4,7145.71
1597.24,64045.8,384.405,55539.16,14677.8,61672.0,1052.15,30457.1,2197.83,42970.6,4136.12,63444.6,100.494,59176.2,6923.49,60213.1,7169.25,61235.6,7300.29,56761.7,10546.2,60723.5,6400.46
1600.39,63640.6,421.654,56304.64,14163.7,62273.1,955.561,31512.8,2245.42,43962.85,4265.8,62336.4,120.663,58599.0,6386.69,59925,6610.51,61121.6,6760.47,56569.4,10561.2,60888.7,5936
1603.54,62998.8,474.207,56828.08,13959.9,62742.7,995.343,32407.6,2354.52,44639.3,4300.15,61091.9,137.356,57774.9,6019.47,59253.8,6187.35,60817.6,6382.41,56047.1,10615,60867.8,5710.66
1606.69,61995.4,540.511,57111.84,13994.2,63086.9,1100.25,33251.4,2501.77,45151.95,4226.16,59772.6,150.316,56894.1,5827.74,58290.9,5874.53,60425.3,6143.85,55114.9,10626.8,60703.7,5675.25
1609.84,60521.6,614.584,57183.44,14168.4,63319.1,1214.32,34153.8,2657.99,45653.0,4045.88,58421.4,160.307,56116.1,5818.55,57148.2,5651.8,60035.7,6015.89,53722.3,10505.2,60447.1,5773.87
1612.99,58509.0,689.839,57092.16,14381.3,63461.4,1271.62,35210.4,2796.93,46278.3,3771.42,57048.9,167.636,55535.4,5970.92,55463.5,7559.83,59713.0,5963.71,51857.7,10166.5,60152,5946.99
1616.14,55945.8,759.738,56902.2,14551.3,63542.7,1220.52,36490.2,2902.62,47129.9,3424.06,55625.6,173.346,55156.5,6229.08,54307.2,7417.8,59486,5949.72,49554.3,9553,59868.2,6137.66
1619.29,52887.4,821.463,56684.12,14631.3,63594.1,1045.75,38025.3,2976.38,48268.1,3039.08,54084.7,178.084,54887.1,6517.05,53266.3,7314.53,59346.1,5940.96,46889.3,8646.65,59636.3,6302.25
1622.44,49450.2,874.512,56504.48,14614.2,63647.1,781.357,39807.7,3034.82,49703.6,2675.48,52330.1,182.003,54547.5,6755.52,52377.1,7244.12,59253.4,5916.55,43977.3,7476.97,59482.2,6415.55
1625.59,45798.2,920.468,56416.12,14527.6,63728.2,528.495,41789.9,3105.27,51401.1,2421.05,50254.6,185.188,53899.8,6870.15,51630.3,7198.15,59148.3,5873.34,40956.8,6123.84,59412.9,6472.1
1628.74,42119.0,962.736,56450.28,14421.3,63855.5,467.094,43891.2,3215.42,53285.15,2365.79,47759.4,187.119,52687.1,6797.96,50971.6,7165.42,58966.6,5828.11,37971.7,4719.73,59415.9,6481.35
1631.89,38593.6,1002.31,56610.84,14348.5,64034.6,582.304,46010.5,3380.71,55252.0,2534.61,44775.2,187.553,50681.3,6498,50308.1,7132.61,58657,5817.07,35153.1,3465.72,59460.6,6460.91
1635.04,35370.4,1037.68,56873.92,14351.3,64257.5,657.771,48040.3,3599.94,57184.05,2860.3,41278.9,185.568,47727.8,5972.82,49520.8,7088.5,58193.6,5888.44,32600.3,2661.64,59502.5,6430.08
1638.19,32540.6,1066.48,57191.36,14447.9,64502.2,596.415,49880.0,3856.61,58965.3,3246.66,37302.6,180.443,43780.4,5308.98,48481,7030.76,57583.2,6090.2,30367.3,2559.31,59489.5,6405.46
1641.34,30127.0,1084.69,57497.88,14628.4,64734.1,413.332,51452.2,4128.03,60494.0,3621.4,32935.9,171.314,38921.8,4736.44,47069.1,6974,56865.7,6452.56,28455.3,2944.83,59369.8,6398.2
1644.49,28081.6,1087.86,57721.12,14857,64911.3,348.883,52710.4,4390.77,61694.7,3945.03,28316.5,158.585,33362.4,4634.22,45191.8,6956.01,56106,6979,26813.1,3408.41,59098.6,6412.35
1647.64,26298.0,1073.61,57794.6,15076.9,64989.2,681.676,53643.4,4625.21,62523.6,4203.91,23615.4,141.991,27422.4,5261.98,42797.6,7038.31,55380.8,7646.3,25347.1,3742.35,58645.8,6444.05
1650.79,24632.4,1040.29,57667.52,15221.4,64928.8,1131.52,54272.4,4815.88,62969.3,4400.61,19016.9,122.023,21494.5,6458.28,39886.3,7294.47,54760.3,8412.85,23936.6,3893.96,57998.6,6481.54
1653.94,22931.4,987.667,57315.48,15227.7,64700.5,1550.44,54643.5,4953.59,63050.85,4544.43,14696.7,99.971,15996.8,7867.02,36513.6,7785.6,54290.8,9228.84,22454.5,3877.94,57162.9,6507.08
1657.09,21063.2,917.028,56743.88,15049.4,64291.9,1876.32,54814.6,5035.13,62808.85,4643.3,10805.9,77.1783,11322.7,9197.72,32786.7,8533.78,53980.4,10037.6,20790.9,3735.06,56160.7,6500.27
1660.24,18940.8,830.312,55987.84,14668,63706.9,2083.5,54839.4,5062.43,62297.85,4700.4,7456.64,55.4715,7791.78,10262.6,28856.4,9512.06,53792.3,10778.8,18870.7,3509.39,55023.5,6441.09
1663.39,16540.4,730.742,55105.24,14098,62965.3,2176.77,54754.8,5041.93,61575.35,4713.43,4717.43,35.9974,5614.72,10961.5,24901.2,10655.7,53643.7,11387.7,16670.0,3234.72,53785.7,6311.6
1666.54,13905.6,622.246,54166.2,13382,62097.9,2184.14,54566.7,4982.48,60692.5,4678,2616.86,20.7532,4870.78,11275.2,21109.3,11881.3,53415.9,11799.8,14221.5,2930.32,52474.6,6097.19
1669.69,11142.6,510.076,53238.16,12581.7,61136.2,2149.18,54246.2,4891.61,59688.35,4592.91,1149.64,10.4376,5503.17,11259.4,17659.3,13103.2,52970.1,11956.1,11612.3,2601.65,51103.6,5787.35
1672.83,8400.4,399.717,52371.0,11762.8,60103.3,2126.18,53730.5,4774.44,58585.15,4466.73,289.071,4.89116,7334.56,11036.5,14701.2,14244.9,52167.5,11814,8971.73,2247.31,49666.7,5382.34
1675.98,5847.8,297.551,51582.08,10977.9,59003.3,2178.89,52930.2,4634.22,57388.6,4322.73,0.0,0.0,10091.7,10770.6,12341.9,15245,50890.9,11357.8,6454.0,1865.96,48137,4906.2
1679.13,3644.8,208.671,50849.08,10255.9,57811.5,2369.84,51746.1,4474.05,56091.85,4199.6,243.429,8.0951,13442.6,10623.5,10634.9,16061.6,49063.5,10613.1,4214.2,1463.08,46470.2,4432.64
1682.28,1916.6,136.008,50105.32,9596.3,56471.5,2724.7,50086.1,4298.14,54679.55,4147.39,988.214,19.9506,17036.6,10690.7,9580.36,16671.8,46661.5,9660.5,2387.8,1052.69,44611.2,4117.63
1685.43,736.4,80.6092,49246.52,8972.44,54896.2,3209.07,47886.5,4114.92,53137.55,4214.11,2203.93,34.9519,20542.1,10960.4,9110.06,17081.4,43719.5,8655.29,1070.0,659.16,42505,4188.68
1688.58,113.8,37.4881,48142.96,8340.42,52977.4,3741.97,45128.3,3935.62,51459.25,4425.32,3858.5,51.5,23678.9,11325.2,9135.97,17300.4,40325.8,7840.2,303.733,318.284,40108.6,4799.86
1691.73,0.0,0.0,46658.36,7654.74,50598.4,4225.86,41851.1,3771.45,49651.15,4774.31,5910.86,68.8164,26239.9,11640.4,9525.74,17359.8,36613.1,7509.14,76.2667,151.345,37403,5900.61
1694.88,294.0,40.4821,44673.88,6891.08,47655.9,4569.95,38155.2,3633.41,47739.45,5225.93,8301.07,85.1809,28103.5,11780.3,10135.2,17298.8,32740.5,7853.2,323.0,297.28,34403.6,7330.21
1698.03,870.8,91.9943,42110.08,6084.42,44080.0,4708.03,34197.5,3529.75,45770.5,5732.96,10947.6,99.8297,29233.9,11671.3,10826.3,17159.9,28875.7,8810.17,943.067,477.848,31163.8,8939.75
1701.18,1596.6,164.128,38947.52,5390.5,39855.1,4609.39,30177.4,3465.6,43809.75,6248.61,13745.5,112.002,29676.3,11304.8,11484.5,16984.9,25176.3,10144.7,1816.13,683.329,27776.1,10618.2
1704.33,2355.6,270.169,35238.96,5134.52,35035.5,4285.07,26316.1,3443.63,41936.95,6732.97,16573.1,121.927,29539.9,10736,12031.2,16810.3,21776.1,11625.2,2823.53,959.766,24365.6,12285.1
1707.48,3065.8,422.382,31111.76,5659.41,29751.1,3784.41,22830.0,3460.03,40239.4,7157.26,19302.9,129.03,28982.9,10074.8,12433.1,16665.3,18775.1,13094.3,3868.13,1316.9,21078.3,13880.9
1710.63,3688.8,629.804,26760.92,6969.17,24205.2,3185.65,19906.8,3504.66,38803.85,7504.52,21818.1,133.788,28192.2,9464.22,12702.4,16569.2,16237.3,14464.1,4887.47,1726.49,18066,15362.9
1713.78,4230.0,894.352,22429.4,8775.47,18658.5,2577.09,17681.5,3561.33,37706.4,7771.67,24026.4,136.534,27364.1,9040.9,12892.7,16531.3,14192.3,15697.2,5860.93,2143.17,15469.3,16702.8
1716.93,4729.6,1210.58,18382.56,10785.9,13404.9,2031.66,16222.6,3612.52,37004.45,7969.66,25876.4,138.156,26687.1,8882.72,13088.3,16551.3,12642.6,16789.4,6808.47,2523.06,13400.7,17885.9
1720.08,5249.4,1565.23,14875.04,12790.1,8739.07,1578.5,15524.3,3645.14,36729.45,8120.79,27363.9,138.552,26326.3,8973.78,13389.7,16621.1,11571.5,17756.5,7779.4,2835.31,11931.7,18910.8
1723.23,5852.2,1936.98,12119.52,14647,4921.53,1193.29,15511.5,3655.22,36882.8,8253.83,28534.5,138.247,26409.7,9222.31,13897.6,16727.3,10951.5,18622.3,8838.13,3070.55,11084.5,19788
1726.38,6585.8,2301.84,10259.88,16271.7,2146.0,824.777,16053.3,3647.12,37434.25,8397.46,29474.1,137.452,27019.1,9513.2,14696.6,16853.6,10750.6,19410.5,10045.5,3243.16,10830.2,20538.5
1729.53,7469.4,2633.45,9351.6,17628.2,513.667,438.8,16982.0,3632.07,38323.75,8572.7,30297.1,136.556,28184.1,9753.09,15842.4,16983.1,10934,20137.2,11440.7,3388.09,11093.5,21189.5
1732.68,8488.6,2906.82,9356.16,18723.2,20.0667,51.6533,18120.9,3619.88,39467.65,8788.68,31124.8,135.709,29879.6,9888.69,17353.2,17099.9,11464.8,20807,13028.6,3548.98,11762.3,21769.5
1735.83,9594.0,3104.25,10145.4,19596.5,552.933,339.56,19305.8,3614.25,40766.4,9044.15,32066.2,135.143,32030.3,9903.23,19206.6,17189.8,12302.3,21412.4,14775.0,3760.22,12705.0,22302.5
1738.98,10714.2,3214.13,11523.24,20304.7,1911.6,644.509,20409.1,3610.69,42114.1,9330.74,33199.4,134.734,34517.9,9806.59,21342.4,17240.6,13397.6,21936.5,16606.1,4032.45,13784.5,22803.2
1742.13,11768.0,3235.84,13252.0,20906.2,3831.4,844.834,21352.2,3600.33,43409.95,9636.98,34559.5,134.936,37195.5,9623.23,23671.4,17241,14691.7,22356.8,18420.9,4350.26,14876,23274.1
1745.28,12681.4,3177.56,15085.24,21443.3,6020.93,934.177,22112.3,3576.04,44567.85,9952.11,36134.9,135.583,39903.3,9381.16,26087,17181.6,16114.8,22651.5,20107.1,4682.54,15880.5,23704.3
1748.43,13404.8,3056.32,16803.0,21931.4,8202.67,947.648,22719.0,3537.39,45524.5,10263.9,37872.0,136.686,42489.2,9106.11,28478.9,17052.8,17590.8,22804.5,21559.9,4994.04,16733.3,24072.4
1751.57,13922.4,2894.38,18240.2,22355,10149.1,955.147,23242.9,3490.57,46245.05,10559.5,39688.1,138.541,44826.9,8815.78,30747.6,16847,19042.6,22808.1,22701.9,5254.48,17408.2,24349.3
1754.72,14258.8,2717.24,19304.84,22676.4,11711.9,1021.52,23778.2,3443.7,46724.85,10824.2,41487.5,141.043,46830.8,8519.62,32815.3,16559.9,20400.5,22666.5,23497.4,5441.84,17914.8,24504.7
1757.87,14473.2,2547.22,19986.52,22849.4,12836.3,1146.92,24422.9,3401.56,46987.5,11044.1,43182.1,143.953,48466.3,8221.88,34633.1,16191.8,21611.4,22395.7,23960.9,5545.28,18291.5,24513.1
1761.02,14652.4,2404.38,20348.88,22834.3,13561.4,1280.58,25260.4,3362.54,47079.3,11207.4,44706.9,147.158,49751.5,7922.47,36185.1,15749.7,22646.4,22021.3,24155.5,5564.28,18595.3,24358.7
1764.17,14892.8,2300.04,20511.72,22612.4,14004.7,1383.86,26343.7,3318.81,47060.7,11308.8,46031.4,150.598,50750.9,7619.26,37485.3,15246.6,23505.1,21576.5,24183.7,5510.24,18889.4,24040.1
1767.32,15284.0,2239.26,20626.28,22192.1,14334.2,1465.68,27688.0,3260.72,46997.0,11349.4,47162.5,153.976,51561.2,7308.48,38572,14700.3,24214.3,21097.1,24170.4,5405.01,19232.1,23571.1
1770.47,15891.4,2217.66,20842.6,21609.2,14734.3,1579.59,29267.3,3183.01,46947.7,11334.9,48139.4,157.024,52292.1,6984.72,39499.3,14130,24823.8,20616.7,24242.3,5279.38,19666.5,22978.2
1773.62,16745.8,2226.37,21281.72,20921.1,15368.0,1781.91,31021.4,3085.63,46956.65,11274.6,49022.4,160.603,53043.9,6642.68,40326.8,13552.2,25395.8,20161.6,24505.8,5168.42,20215.9,22296.8
1776.77,17837.4,2251.82,22012.56,20197.2,16345.8,2076.39,32866.3,2974.62,47046.55,11177.6,49876.6,163.876,53888.4,6280.71,41110.5,12978.6,25991.9,19747.7,25030.0,5104.84,20880.1,21564.6
1779.92,19116.4,2279.88,23039.04,19505.7,17705.5,2411.41,34708.6,2856.08,47215.2,11052.3,50755.5,167.34,54854.1,5905.14,41896.1,12413.3,26660.2,19378.8,25832.9,5112.03,21639.2,20814.5
1783.07,20504.8,2297.44,24299.16,18902.4,19403.9,2719.79,36460.5,2733.79,47436.1,10905.7,51687.9,170.985,55919.3,5533.05,42714.5,11852.9,27424.5,19047.9,26881.5,5196.47,22457.4,20069.5
1786.22,21909.6,2296.68,25676.16,18419.4,21323.9,2951.2,38052.4,2606.04,47663.1,10744.5,52670.3,174.939,57017.8,5188.43,43581.4,11286.2,28276.6,18739.8,28096.1,5344.57,23290.3,19339.4
1789.37,23238.2,2274.01,27018.56,18058.8,23295.6,3084.43,39440.7,2468.87,47837.35,10576,53666.6,178.697,58049.2,4890.11,44499.1,10695.6,29176.2,18435.2,29365.3,5526.5,24092.3,18619.5
1792.52,24418.2,2232.35,28167.6,17793.2,25126.7,3128.36,40613.9,2317.96,47897.15,10407.4,54615.7,182.618,58901.0,4637.74,45461,10059.5,30056,18113.7,30565.8,5701.83,24823.5,17893.3
1795.67,25405.4,2177.9,28984.68,17571.9,26636.3,3116.49,41586.8,2153.97,47787.45,10245,55445.9,186.411,59471.3,4405.29,46456.0,9356.85,30833.3,17758.2,31584.9,5829.28,25454.7,17135.9
1798.82,26193.2,2120.4,29374.6,17332.7,27686.7,3095.73,42396.3,1983.6,47468.8,10091.1,56089.5,189.991,59689.9,4151.88,47472.9,8576.21,31423.2,17356.7,32339.1,5875,25969.9,16320.4
1801.97,26810.6,2070.15,29303.24,17017.8,28207.5,3115.92,43091.8,1821.43,46922.9,9944.94,56498.9,193.763,59536.8,3842.82,48502.8,7726.79,31756.4,16904.2,32788.5,5821.88,26366.1,15424.1
1805.12,27314.6,2035.78,28802.16,16584.8,28207.0,3221.02,43724.3,1687.47,46155.65,9800.7,56658.4,197.005,59047.2,3476.8,49539.7,6853.93,31791.5,16404,32942.8,5673.79,26651.5,14434.9
1808.27,27778.2,2022.69,27963.92,16016.9,27771.7,3440.86,44338.4,1601.45,45196.45,9650.36,56589.1,200.116,58310.1,3103.5,50578.2,6055.75,31524.7,15866.3,32858.7,5458.96,26842.3,13357.1
1811.42,28274.4,2032.52,26925.6,15324.2,27050.2,3786.7,44965.7,1573.49,44094.1,9485.37,56346.0,202.534,57453.8,2829.61,51611,5490.21,30993.3,15306.1,32628.0,5225.01,26957.9,12212.7
1814.57,28862.8,2061.71,25848.12,14539.8,26228.3,4245.23,45623.4,1597.81,42908.2,9299.73,56009.6,204.196,56624.4,2780.1,52624.8,5329.28,30271.5,14739.9,32360.5,5028.8,27017.7,11040
1817.72,29576.4,2103.21,24889.68,13711.5,25498.8,4780.36,46314.6,1652.84,41702.85,9091.57,55669.4,204.534,55960.8,2997.06,53597.7,5639.39,29459.2,14180.2,32163.9,4918.07,27038.3,9887.52
1820.87,30416.8,2145.02,24182.32,12890.6,25030.1,5340.05,47035.0,1711.91,40535.6,8864.18,55409.8,202.969,55569.7,3399.42,54498.6,6314.19,28669.8,13633.4,32124.8,4912.49,27031.9,8805.57
1824.02,31355.0,2176.93,23814.12,12119.6,24941.5,5869.28,47777.9,1750.47,39451.9,8625.72,55294.1,200.024,55508.2,3870.29,55288.4,7167.24,28010.8,13096.2,32293.1,5000.58,27006.3,7835.84
1827.17,32336.8,2188.55,23819.56,11423.8,25288.7,6321.04,48541.9,1753.95,38480.15,8386.72,55354.3,194.755,55773.8,4330.72,55925.4,8038.31,27570.2,12557.9,32674.8,5147.26,26966.1,7002.5
1830.31,33295.6,2172.25,24179.84,10805.5,26058.9,6665.48,49333.3,1716.91,37629.3,8157.43,55587.6,188.022,56309.0,4751.19,56371.5,8825.17,27404.2,12003.4,33233.7,5313.87,26915.1,6309.34
1833.46,34165.6,2125.69,24832.24,10244.8,27180.8,6892.83,50171.7,1643.27,36892.2,7944.97,55961.1,180.186,57011.2,5137.35,56599.9,9478.06,27531.4,11417.5,33898.5,5468.07,26858,5743.09
1836.61,34897.0,2050.52,25686.36,9704.84,28542.7,7014.09,51084.0,1543.53,36248.15,7752.89,56419.4,171.701,57757.3,5509.95,56602.5,9988.71,27933.2,10790.8,34579.8,5587.49,26802.7,5283.1
1839.76,35464.6,1952.37,26644.08,9144.74,30016.0,7056.52,52104.1,1430.48,35671.05,7582.62,56900.1,163.348,58426.4,5890.88,56394.2,10380.6,28559.9,10121.7,35187.3,5659.12,26760.9,4912.73
1842.91,35876.2,1840.85,27619.0,8533.95,31482.3,7056.5,53261.8,1312.3,35135.05,7435.48,57345.6,155.769,58925.7,6294.38,56014.3,10698.8,29343.1,9421.11,35649.0,5679.2,26748.7,4629.89
1846.06,36169.6,1725.33,28551.76,7867.26,32852.9,7051.17,54575.9,1190.9,34620.0,7313.86,57715.5,149.781,59205.6,6726.51,55522.5,11000.1,30208.1,8711.51,35925.9,5652.96,26784.9,4452.88
1849.21,36406.8,1616.09,29418.88,7178.62,34083.0,7069.24,56045.7,1062.05,34117.0,7219.85,57992.5,145.375,59268.4,7189.21,54990.9,11340.1,31087.5,8027.05,36019.7,5596.38,26889.8,4419.13
1852.36,36663.8,1520.08,30233.48,6544.57,35175.5,7124.23,57645.8,918.758,33627.65,7151.2,58182.0,142.737,59164.0,7679.96,54492.8,11761.5,31931.1,7409.44,35973.9,5533.22,27082.7,4571.44
1855.51,37013.4,1442.52,31037.0,6073.05,36174.0,7207.77,59322.2,759.05,33163.4,7099.71,58305.0,141.298,58973.9,8187.41,54088.7,12284.4,32712.6,6899.94,35866.7,5487.91,27379.1,4932.01
1858.66,37514.2,1383.67,31886.64,5859,37147.6,7292.49,60994.6,587.078,32740.55,7051.45,58387.1,140.757,58789.3,8687.69,53813.7,12899.4,33429.1,6526.94,35796.9,5476.41,27788.8,5483.37
1861.81,38195.6,1340.1,32839.28,5924.92,38172.4,7337.8,62561.6,414.792,32374.8,6991.48,58447.6,140.365,58684.2,9143.39,53667.5,13567.7,34097.2,6293.13,35866.1,5497.96,28314.4,6171.66
1864.96,39054.2,1305.82,33934.56,6201.16,39309.7,7300.69,63908.7,259.187,32074.95,6910.15,58487.4,139.994,58693.6,9509.66,53609.5,14226,34744.9,6172.78,36160.5,5535.87,28950.3,6925.23
1868.11,40051.0,1275.14,35183.32,6574.03,40590.5,7148.97,64918.8,135.977,31836.6,6805.92,58485.3,139.212,58797.6,9742.59,53560.3,14795.6,35401.4,6119.42,36736.3,5563.84,29683.1,7672.78
1871.26,41118.2,1241.38,36561.88,6946.59,42005.6,6867.88,65483.8,50.2908,31639.45,6685.4,58396.8,137.713,58917.2,9811.46,53410.2,15194.9,36088.1,6082.69,37608.3,5558.14,30492.5,8356.07
1874.41,42171.2,1198.94,38012.08,7268.06,43505.3,6466.8,65514.6,33.8059,31446.3,6556.8,58165.2,136.037,58924.4,9704.8,53034.5,15353.7,36811.3,6023.98,38748.7,5502.41,31353.3,8936.99
1877.56,43121.6,1145.36,39451.52,7532.68,45007.5,5976.97,64948.2,136.84,31206.4,6425.22,57734.6,134.404,58662.2,9436.46,52311,15225.8,37559.9,5924.97,40090.8,5391.6,32237.4,9400.89
1880.71,43894.0,1079.3,40785.32,7768.23,46412.7,5445.73,63754.9,296.218,30860.55,6288.67,57066.4,132.847,57975.2,9047,51141.7,14802.8,38306.1,5792.85,41541.5,5228.52,33117.4,9757.62
1883.86,44438.2,1000.87,41924.6,8021.53,47623.8,4928.32,61936.8,508.891,30349.15,6139.47,56156.3,132.262,56740.1,8600.62,49470,14121.7,39011.6,5660.62,42996.7,5020.95,33968,10037.9
1887.01,44740.6,912.601,42801.56,8343.04,48564.5,4475.96,59529.2,761.572,29621.1,5970.65,55044.7,132.25,54895.5,8182.65,47295.8,13266.5,39635.7,5585.88,44358.4,4780.44,34770.1,10287.3
1890.16,44825.8,819.23,43381.8,8772.69,49194.5,4129.69,56594.1,1034.03,28642.1,5780.22,53820.4,133.229,52461.4,7887.18,44681.7,12360.3,40144.7,5644.78,45552.3,4520.23,35512.3,10557.2
1893.31,44754.2,726.539,43672.16,9329.74,49517.8,3914.76,53215.4,1306.08,27401.95,5572.05,52612.6,134.605,49546.4,7795.5,41751.8,11544.1,40520.4,5911.9,46537.5,4257.91,36192.9,10895.4
1896.46,44614.6,642.914,43719.08,10005.2,49581.3,3840.58,49491.9,1558.59,25917.25,5352.16,51576.6,136.126,46339.8,7950.44,38681.5,10941.5,40766.1,6436.11,47313.8,4013.65,36821.1,11336.4
1899.61,44509.4,575.794,43602.0,10762.8,49467.0,3897.55,45530.1,1776.64,24232.55,5123.24,50868.2,137.321,43089.3,8337.35,35679.9,10620,40907.7,7222.19,47920.2,3805.24,37416.3,11895.9
1902.76,44540.6,530.044,43420.08,11545.2,49277.5,4056.61,41438.1,1949.96,22416.45,4882.72,50620.4,137.382,40069.4,8893.74,32968.5,10575.9,40992.5,8233.4,48426.5,3643.33,38007.3,12568.2
1905.91,44794.6,505.333,43277.04,12286.9,49115.9,4272.02,37320.1,2075.88,20554.25,4625.78,50916.4,135.867,37544.2,9532.87,30755.7,10757.4,41082.3,9406.99,48922.5,3523.86,38629.6,13327.6
1909.06,45330.2,497.064,43264.16,12927.4,49069.3,4491.61,33271.9,2156.67,18739.05,4352.41,51773.6,132.763,35731.9,10166,29215.2,11106.5,41244.2,10666.5,49501.5,3427.78,39322,14132.5
1912.2,46171.4,498.885,43447.2,13420.7,49194.2,4666.71,29378.4,2198.51,17062.2,4073.65,53136.2,127.684,34775.0,10715.6,28466.4,11585.1,41541.3,11930.8,50246.3,3328.41,40121.4,14931
1915.35,47305.6,505.984,43857.96,13744.4,49508.4,4762.83,25709.4,2211.01,15600.75,3813.1,54881.1,121.217,34723.8,11122.5,28563.1,12171.4,42021.4,13120.9,51214.5,3198.09,41057.6,15669.3
1918.5,48687.0,515.434,44491.12,13900.9,49990.6,4764.64,22319.4,2203.08,14409.6,3599.28,56834.1,113.516,35533.2,11350.8,29488.9,12843.5,42710.5,14166,52432.1,3016.67,42148.5,16298.9
1921.65,50246.2,524.112,45307.36,13915.8,50588.8,4678.38,19245.9,2182.93,13515.0,3455.34,58797.9,105.643,37071.9,11395.4,31161.1,13566.1,43607,15012.3,53887.1,2774.74,43394.9,16784.5
1924.8,51898.0,531.401,46242.16,13833.2,51231.0,4530.31,16507.5,2157.1,12911.0,3391.78,60582.7,97.9413,39144.4,11287.8,33440.1,14293.6,44681.1,15629.9,55531.9,2477.26,44777.1,17111.7
1927.95,53557.2,535.477,47215.88,13708.1,51841.3,4360.8,14106.3,2129.39,12559.7,3407.32,62036.4,91.6083,41517.8,11098.1,36144.7,14983.7,45877,16018.7,57288.7,2146.71,46253.8,17289.5
1931.1,55146.4,535.298,48145.96,13598.6,52354.3,4216.89,12027.7,2103.43,12394.65,3494.85,63067.6,86.4281,43950.7,10924.7,39069.8,15613.2,47118,16210.1,59058.1,1825.9,47762.7,17351.3
1934.25,56605.6,532.514,48957.04,13558.3,52725.5,4136.18,10243.7,2078.67,12327.05,3640.68,63658.6,83.4366,46219.3,10867.6,42002.7,16185.6,48313.8,16263.9,60728.3,1572.83,49224,17350.7
1937.4,57894.0,531.199,49587.88,13628.3,52936.7,4136.4,8715.5,2050.38,12255.25,3815.99,63863.4,82.3761,48134.3,10992.4,44739.8,16728.1,49369,16261.1,62186.7,1429.49,50545.9,17354.2
1940.55,58990.8,537.63,49995.36,13832.7,52995.3,4209.78,7399.2,2007.87,12073.8,3968.52,63794.2,82.7347,49551.3,11306.5,47098.2,17281.2,50190.3,16293.3,63328.0,1374.35,51633,17431.2
1943.7,59891.6,559.669,50152.24,14179.1,52927.1,4334.4,6250.8,1936.59,11683.05,4029,63595.5,83.9615,50369.5,11777.5,48925.2,17886,50694.7,16449.8,64060.9,1330.24,52393.9,17647.8
1946.85,60601.8,606.405,50044.8,14664.1,52766.3,4494.28,5231.3,1819.81,10999.75,3922.64,63413.9,85.3827,50526.6,12384.6,50103.4,18575.6,50814.8,16808,64313.3,1251.41,52750.7,18060.6
1950.0,61129.4,684.378,49667.8,15282.4,52543.7,4698.8,4311.4,1642.86,9963.5,3587.36,63367.9,86.7817,49989.1,13172.4,50553.5,19374.9,50503.5,17426,64036.7,1249.43,52646.9,18716.5