File: output/3.02_averaged-data.csv
Wavelength (nm),ABS_mean,ABS_std,HDPE_mean,HDPE_std,LDPE_mean,LDPE_std,PA6_mean,PA6_std,PA66_mean,PA66_std,PC_mean,PC_std,PET_mean,PET_std,PETG_mean,PETG_std,PLA_mean,PLA_std,PMMA_mean,PMMA_std,POM_mean,POM_std,PP_mean,PP_std,PS_mean,PS_std,PVC_mean,PVC_std,TPU_mean,TPU_std
1550.0,48632.7,7367.02,46559.9,10268.1,51636.7,5313.25,47.7778,109.667,239.419,377.389,64205.5,340.329,55756.4,6819.77,54026.9,8858.29,44798.5,15404,54145.2,9729.83,42271.8,5027.69,50099.125,9669.1,57702.9,3202.74,54442.1,11481.2,30662.3,5563.62
1553.15,49502.6,7248.65,46869.1,9957.81,51743.3,5668.62,573.63,442.401,411.742,483.349,64261.6,326.916,55648.3,7427.26,54380.9,8681.7,45446.5,15307.4,54405.8,9729.49,43148.25,4925.99,50403.4,9549.13,57743.5,3080.06,54703.9,11109.9,31609.1,5390.53
1556.3,51071,6803.6,47781.9,9203.08,52062.5,6039.26,2259.41,1316.57,1860.03,1465.56,64247,299.933,55581.5,7916.84,54989.4,8084.67,46933.6,14526.1,54786.8,9473.66,44510.4,4729.87,51139.9,9100.36,58051.4,3334.43,55271.3,10414.5,33379.6,5090.05
1559.45,53155.2,6096.39,49170.4,8100.04,52565.8,6438.21,4924.93,2460.11,4427.81,2640.14,64204.8,262.743,55627.3,8304.92,55843.8,7153.49,49066.7,13201.2,55296.7,9007.44,46263.375,4459.11,52256.8,8394.33,58542.5,4117.96,56088.1,9457.23,35830.5,4692.46
1562.6,55519.1,5212.81,50869.3,6778.8,53215.5,6823.42,8327.7,3733.71,7899.13,3859.38,64186,220.046,55868.4,8580.04,56923.7,6001.66,51594.7,11518.5,55942.9,8385.99,48282.5,4139.53,53680.1,7519.86,59111.8,5252.44,57079.6,8322.27,38768.9,4240.93
1565.75,57911.6,4247.79,52695.6,5379.18,53969.7,7106.04,12192.4,4988.03,12019.3,4968.41,64235.3,176.538,56373.1,8704.99,58190.8,4754.6,54246.7,9682.5,56726.7,7663.33,50432.2,3797.8,55317.5,6567.2,59653.4,6469.74,58162.2,7103.2,41975.9,3781.42
1568.9,60105.3,3293.33,54487.3,4040.71,54788.2,7185.9,16242,6087.58,16518.2,5828.3,64379.2,136.025,57173.4,8631.94,59585.3,3532.83,56772.3,7886.51,57638.4,6882.74,52584.0,3455.81,57064.9,5613.24,60081.5,7560.91,59253.6,5889.58,45232.5,3354.04
1572.05,61929.5,2427.27,56112.4,2876.06,55636.6,6988.18,20226.4,6930.85,21133.1,6342.61,64616.7,101.058,58249.8,8324.58,61025.4,2436.69,58973.1,6289.47,58653.2,6075.1,54632.1,3127.3,58813.625,4710.63,60344.8,8394.79,60282.3,4755.65,48343.7,2983.44
1575.2,63291,1705.14,57491.1,1966.32,56488.7,6486.44,23947.1,7464.22,25629.7,6474.93,64916.3,71.8481,59525.2,7776.61,62412.6,1535.22,60726.5,4997.65,59729.2,5263.6,56503.25,2817.62,60459.5,3887.38,60434.4,8911.83,61194,3753.9,51159.6,2675.58
1578.35,64180.1,1158.02,58598.4,1357.96,57328,5711.06,27269.4,7686.92,29817.6,6256.95,65219.8,46.7754,60873.5,7020.16,63642,860.734,61991.3,4056.92,60807.9,4473.81,58160.75,2525.09,61912,3155.27,60381,9115.91,61955,2914.85,53587.3,2419.1
1581.5,64660.1,789.482,59458.2,1053.66,58145.8,4740.93,30129,7646.46,33560.5,5783.71,65451.9,23.4167,62138.4,6124.78,64615.6,408.968,62799.9,3450.13,61818.9,3744.24,59600.75,2246.7,63102.3,2523.83,60244.7,9062.12,62552.5,2252.02,55595.5,2196.03
1584.65,64845.1,576.055,60131.3,985.541,58938.6,3689.51,32525,7426.32,36780.7,5197.06,65535.0,0.0,63160.7,5186.33,65258.0,144.968,63238.5,3105.7,62685.3,3132.7,60842.7,1978.69,63990,2008.41,60096.4,8837.71,62991.2,1768.57,57210.9,1988.22
1587.8,64866.7,469.874,60694.1,1036.91,59704.8,2681.64,34508.1,7128.31,39455.2,4654.76,65401.1,23.7432,63808.6,4310.02,65529.5,15.9597,63417.4,2923.48,63332.3,2708.13,61916.625,1720.12,64566.6,1626.38,59996.2,8540.44,63288.6,1457.51,58503.5,1784.13
1590.94,64841.6,429.806,61219.5,1116.07,60440.2,1834.7,36162.4,6851.84,41609.9,4281.08,65009.6,47.5575,64003.6,3585.75,65432,55.1784,63444.2,2813.3,63696.8,2515.69,62851.7,1470.04,64853.9,1378.16,59974.0,8261.32,63469,1290.31,59569.7,1576.28
1594.09,64842.8,457.408,61759.2,1167.19,61136.6,1238.57,37586.8,6677.44,43307.9,4118.13,64350.2,70.4252,63737.9,3063.73,65013.4,100.028,63398.4,2726.99,63734.9,2530.55,63664.125,1226.81,64899.9,1232.05,60015.7,8070.07,63557.9,1215.35,60509.1,1360.85
1597.24,64881.7,582.284,62333.8,1157.08,61781.2,928.082,38878.0,6653.64,44637.3,4126.99,63445.3,92.1446,63077.8,2740.26,64355.3,142.729,63317.4,2674.7,63429.2,2670.15,64353.25,989.06,64769.7,1147.8,60058.7,8007.9,63578.5,1184.34,61405.1,1136.45
1600.39,64903.5,811.927,62929.6,1077.72,62356.4,842.216,40117.3,6791.11,45698.4,4243.21,62343.9,112.466,62150.8,2575.65,63559.2,185.18,63195.6,2717.79,62792.4,2855.85,64900.5,755.133,64534.8,1115.6,59997.3,8079.26,63548.6,1179.5,62306.1,905.77
1603.54,64797.6,1129.15,63504.8,951.562,62844.1,879.174,41363.4,7062.59,46592.8,4421.12,61107.9,131.704,61121.1,2534.23,62723,221.058,62993.4,2915.65,61866.2,3044.92,65275.25,525.171,64259.9,1160.62,59699.5,8250.34,63481.1,1214.45,63216.3,675.118
1606.69,64420.9,1509.36,64003.1,831.557,63230,977.383,42650.7,7409.45,47414.0,4629.38,59796.3,150.131,60153.6,2601.93,61919.4,230.799,62656.0,3258.85,60716.9,3225.68,65443.4,305.338,63993.3,1299.45,59030.4,8454.35,63385.8,1311.75,64092.3,455.797
1609.84,63627.3,1926.49,64368.2,777.111,63507,1086.03,43991.4,7755.12,48240.7,4826.55,58448.9,168.631,59377,2776.43,61173.2,190.933,62137.8,3663.78,59426.8,3402.64,65376.2,131.76,63759.3,1504.81,57877.8,8610.38,63270.1,1473.67,64848.6,261.588
1612.99,62301.5,2355.28,64561.8,796.912,63678.5,1143.52,45381.9,8020.95,49133.2,4952.28,57073.7,188.262,58849.2,3049.15,60449.4,162.952,61420.8,4025.62,57608.5,6445.2,65062.5,193.026,63554.2,1726.62,56177,8647.56,63142.6,1676.16,65370.6,106.121
1616.14,60382.3,2772.61,64574.1,835.469,63762.0,1101.91,46808.7,8142.68,50131.0,4943.32,55639.7,210.87,58535.8,3402.53,59648.4,384.844,60528.8,4263.83,56298.9,6458.74,64509.8,368.391,63350,1927.73,53927.8,8531.38,63012.4,1885.08,65533.6,5.23832
1619.29,57882.2,3160.4,64428.6,832.639,63785.0,946.709,48254.7,8083.4,51254.2,4756.42,54079.3,238.13,58304.3,3810.43,58616.2,803.212,59530.2,4344.37,55071.1,6499.33,63744.6,541.481,63101.6,2100.4,51200.5,8281.84,62890.2,2072.69,65221.7,67.4998
1622.44,54888.2,3505.65,64180.7,766.94,63783.8,707.565,49703.2,7840.11,52502.5,4388.62,52298.4,270.902,57936,4235.75,57164.3,1347.69,58524.6,4285.87,53952,6570.89,62807.75,702.685,62758.5,2267.23,48130,7985.46,62785.3,2224.23,64350.5,117.172
1625.59,51550.9,3800.36,63905.3,661.045,63796.4,472.834,51139.2,7443.14,53859.4,3887,50192.2,308.343,57158.0,4625.64,55099.9,1963.23,57623.9,4152.2,52930.7,6669.89,61742.0,852.451,62277.8,2468.16,44896.8,7786.91,62703.6,2338.35,62879.4,195.745
1628.74,48059.4,4039.5,63681.9,584.713,63855.8,405.026,52549.4,6950.54,55293.6,3351,47665.4,347.734,55684.6,4913.92,52259.5,2580.19,56922.8,4034.21,51957.2,6783.42,60580.125,992.964,61636.7,2738.19,41699.8,7848.46,62644,2422.97,60821.1,319.675
1631.89,44611.1,4221.51,63575.4,614.853,63982.7,504.124,53919.9,6434.47,56761.9,2919.53,44653.1,385.204,53269.1,5030.94,48542.7,3119.73,56470.2,4011.61,50946,6889.4,59332.4,1125.66,60840.8,3088.16,38723.4,8270.94,62596.3,2489.57,58243.4,477.167
1635.04,41376.9,4346.62,63621.5,734.287,64180.4,571.928,55235.3,5967.21,58213.1,2718.57,41135.5,415.965,49749.7,4919.1,43937.6,3506.04,56248.4,4115.89,49785.5,6960.15,57977.8,1250.53,59928.7,3505.02,36107.5,9032.87,62540.4,2548.43,55260.5,650.795
1638.19,38473.9,4417.58,63816.2,860.77,64432.4,517.788,56476.6,5606.5,59591.6,2766.82,37148,435.522,45087.7,4548.47,38536.1,3678.85,56160.8,4323.91,48351.8,6967.58,56462.6,1364.5,58967.1,3967.79,33923.3,10008.2,62447,2606.46,52018.9,823.861
1641.34,35946.4,4438.9,64113.0,937.001,64702.7,354.141,57622.4,5383.76,60841.1,2962.97,32781.2,440.471,39388.9,3929.24,32533.8,3604.84,56037.8,4585.33,46525.5,6888.88,54703.875,1463.57,58041.7,4460.87,32160.5,11026.6,62281,2669.35,48678.2,984.528
1644.49,33761.8,4416.57,64430.2,944.734,64941.4,299.237,58650.7,5302.24,61909.8,3192.08,28172.9,428.717,32902,3119.31,26215.8,3285.16,55657.5,4852.67,44208.7,6710.74,52604.0,1541.19,57242.1,4978.34,30729.1,11920.5,62005.3,2744.3,45389.6,1124
1647.64,31819.7,4355.23,64666,898.596,65092.0,598.662,59540.5,5341.59,62753.6,3396.84,23492.6,400.02,25998.2,2229.97,19926.6,2757.19,54779.6,5091.92,41342.1,6431.1,50065.5,1589.62,56643.9,5519.14,29475.1,12542.3,61586.7,2843.14,42276.7,1237.96
1650.79,29974.8,4258.25,64717.5,842.439,65102.0,994.747,60276,5467.27,63339.7,3573.43,18921.4,355.864,19131.2,1448.34,14033.9,2091.2,53186.6,5277.43,37916.2,6058.64,47013.4,1601.31,56290.2,6078.68,28208,12775,60999.7,2980.24,39421.3,1324.11
1653.94,28066.9,4126.19,64502.0,835.443,64930.0,1359.67,60846.6,5637.62,63649.8,3740.59,14632.1,299.868,12783.6,1069.98,8884.96,1380.81,50727.3,5387.1,33978.8,5610.95,43413.8,1568.77,56179.3,6643.39,26735.1,12539.7,60229.2,3165.55,36852.5,1383.16
1657.09,25954.8,3958.5,63973.4,911.305,64556.5,1640.05,61247.7,5810.82,63679.3,3910.77,10771.7,236.771,7410.11,1147.26,4767.58,730.722,47348.1,5406.46,29634.7,5111.61,39287.125,1488.14,56255.2,7188.15,24897.4,11805.1,59271.7,3396.8,34549.8,1416.75
1660.24,23544.2,3755.27,63133.2,1054.26,63984.3,1814.77,61476.8,5951.39,63438.1,4076.55,7448.55,172.42,3383.2,1222.9,1877.85,243.405,43116.0,5335.6,25038.4,4587.01,34715.6,1358.54,56409.8,7681.39,22599.6,10595.5,58131.7,3654.48,32447.8,1427.59
1663.39,20808.9,3519.58,62028.9,1229.78,63238.4,1889.95,61531.2,6035.59,62946.7,4214.03,4729.15,113.008,949.913,999.265,299.654,59.2595,38215.9,5199.26,20380.6,4063.85,29839.6,1185.45,56491.8,8089.38,19831,8993.13,56818,3903.64,30452.4,1418.37
1666.54,17796.5,3258.69,60745.7,1418.65,62359,1892.01,61399,6054.65,62233.2,4297.08,2639.53,64.1573,206.37,399.281,0.0,0.0,32933.6,5043.24,15869.5,3565.38,24845.2,979.529,56323.3,8382.94,16670.8,7134.18,55336.8,4100.97,28456.8,1392.34
1669.69,14623.7,2982.15,59385.3,1621.28,61389.9,1860.73,61058.5,6015.71,61328.6,4310.15,1173.77,30.5023,1089.7,652.14,836.154,335.404,27616.4,4920.88,11709.4,3109.37,19944.0,757.718,55723.5,8539.36,13280.4,5196.92,53686.1,4203.82,26362.4,1351.81
1672.83,11455.2,2700.49,58043.3,1850.61,60365.0,1844.52,60473.3,5937.64,60262.4,4256.82,305.532,13.1244,3395.83,1966.25,2581.69,940.562,22625.8,4865.18,8079.1,2706.05,15348.375,543.581,54531.9,8545.06,9879.71,3388.17,51850.6,4178.14,24095.7,1296.43
1675.98,8476.95,2422.9,56783.1,2123.18,59295.1,1898.83,59593.9,5847.64,59058.5,4161.19,0.0,0.0,6805.89,3507.16,4952.77,1755.02,18284.1,4868.62,5113.54,2359.19,11245.7,370.068,52631.9,8394.26,6715.68,1937.54,49800.8,4005.63,21621.9,1225.03
1679.13,5864.52,2155.33,55616.5,2454.28,58156.7,2076.56,58364.3,5775.55,57735.1,4065.05,219.809,23.0971,10931,5139.61,7645.04,2692.71,14827.4,4889.69,2889.65,2071.38,7775.81,282.364,49968,8088.89,4025.19,1102.91,47495.7,3689.28,18950.4,1136.58
1682.28,3754.38,1901.08,54492.1,2855.82,56887.6,2396.73,56730.7,5749.91,56302.9,4020.36,934.872,59.5478,15358.7,6729.34,10367.1,3654.62,12372.1,4879.03,1423.81,1848.8,5016.625,288.952,46555.4,7637.68,2001.61,868.723,44888.3,3256.29,16135.2,1030.69
1685.43,2223.24,1660.85,53296.9,3333.27,55388.4,2825.8,54654.7,5793.99,54769.6,4076.28,2116.53,106.845,19699.8,8153.66,12868.6,4544.52,10899.9,4806.68,654.164,1716.48,2977.94,323.809,42480.5,7056.45,766.935,611.218,41936.8,2761.76,13267.3,910.474
1688.58,1277.62,1435.07,51870.1,3879.49,53535.4,3290.91,52126.5,5922.05,53143,4261.69,3734.17,160.799,23626.6,9314.46,14961.3,5280.93,10266.5,4673.33,488.664,1686.63,1605.06,337.818,37890.3,6369.32,356.516,336.198,38615.7,2288.62,10460.5,781.392
1691.73,857.429,1222.86,50028.2,4468.77,51195.5,3705.88,49176.7,6134.35,51434.5,4575.89,5747.57,217.199,26900.4,10148.6,16528.8,5808.27,10227.5,4502.05,782.078,1761.56,792.25,321.648,32977.7,5610.07,719.548,1381.73,34927.3,1940.82,7836.8,651.578
1694.88,849.095,1024.54,47598.2,5054.49,48252.2,3991.73,45882.6,6417.59,49666.6,4991.04,8098.68,271.754,29385.5,10633.3,17526.9,6102.06,10483.4,4319.06,1370.07,1912.18,402.375,290.369,27957.7,4824.31,1729.0,2925.44,30911.5,1795.51,5508.2,529.323
1698.03,1111.19,842.055,44451.2,5573.22,44628.5,4092.4,42368.1,6746.98,47874.3,5465.39,10706.5,321.502,31049.4,10787.8,17977.5,6169.23,10729.4,4133.23,2090.32,2094.93,287.375,276.312,23044.5,4073.5,3208.42,4724.13,26648.6,1825.08,3562.4,419.938
1701.18,1498.67,693.296,40533.5,5954.47,40309.8,3984.4,38796.8,7091.96,46106.6,5954.83,13467.5,364.388,31952.1,10670.2,17953.3,6045.46,10706.0,3928.95,2803.09,2271.36,312.5625,307.042,18430,3437.33,4959.61,6619.22,22259.5,1914.11,2051.27,323.864
1704.33,1889.38,633.804,35886.2,6131.96,35359.7,3682.22,35355.5,7422.36,44425.5,6419.68,16261,399.331,32225,10370.4,17563.3,5786.08,10238.8,3680.8,3407.17,2416.82,371.875,372.932,14266.9,3007.51,6794.29,8466.68,17896.2,1956.86,986.067,237.231
1707.48,2203.33,738.835,30651.3,6056.47,29924.7,3234.37,32234.5,7714.19,42900.7,6829.18,18960.7,426.786,32047.3,9998.36,16934.6,5456.23,9264.35,3376.73,3850.56,2521.57,398.0,444.74,10658.3,2847.96,8561.13,10147.7,13728.6,1898.59,338.4,154.127
1710.63,2412.43,1006.71,25062.1,5705.97,24228.6,2714.3,29603.5,7950.26,41603.8,7162.11,21450,447.49,31619.8,9666.08,16198.2,5120.57,7833.41,3037.93,4133.15,2589.48,366.1875,499.016,7655.77,2938.45,10163.4,11578.8,9926.77,1728.24,45.7333,71.9291
1713.78,2539.29,1380.53,19418.7,5092.65,18553.2,2201.44,27589.5,8121.95,40599,7408.59,23637.8,462.613,31140.8,9463.5,15476.4,4833.68,6096.88,2721.27,4302.16,2634.32,289.0,523.043,5263.67,3181.78,11566.1,12715.3,6641.52,1462.93,21.6,28.2154
1716.93,2646.67,1811.58,14051.6,4263.55,13209.8,1755.85,26259.5,8226.63,39935.2,7570.63,25472.2,473.539,30786,9432.96,14874.1,4633.57,4273.88,2494.82,4441.15,2676.83,204.5625,512.657,3449.02,3475.9,12790.9,13549.1,3986.65,1136.23,169.733,94.5921
1720.08,2818.67,2261.14,9279.97,3297.96,8503.38,1391.22,25611.4,8266.87,39637.7,7659.91,26948.9,481.461,30695.3,9559.52,14473.8,4537.74,2611.24,2384.09,4654.1,2739.73,164.6875,469.979,2154.73,3754.4,13901.6,14101.9,2025.48,788.413,396.6,156.337
1723.23,3138.86,2691.57,5369.37,2296.2,4695.86,1072.75,25574.1,8247.18,39704.8,7695.81,28112.3,487.462,30963,9782.87,14332.8,4544.58,1339.12,2336.34,5048.25,2844.2,218.625,404.286,1312.27,3986.44,14982,14417.3,764.234,459.716,622.267,198.111
1726.38,3669.05,3066.52,2499.26,1367.41,1973.0,750.733,26020.7,8173.03,40104.7,7701.35,29047.9,491.699,31635.9,10024.1,14482.6,4635.4,633.824,2252.14,5716.07,3007.04,403.8125,330.271,853.792,4165.12,16113.5,14548.9,152.675,196.816,789.667,216.697
1729.53,4435.1,3351.3,740.105,613.404,420.714,400.439,26786.5,8049.83,40779.3,7699.6,29868.3,494.45,32714.2,10210.9,14930.8,4782.45,591.059,2048.96,6721.59,3238.89,737.5,271.924,718.75,4300.09,17353.5,14551.8,92.0909,161.179,868.867,215.163
1732.68,5419.38,3518.77,49.2105,124.343,14.3333,44.5863,27695.5,7880.54,41649.3,7710.07,30693.7,495.573,34157.7,10293.2,15663.0,4954.28,1216.18,1696,8091.44,3543.85,1214.5,256.988,858.229,4410.83,18721.5,14475,449.753,305.112,858.067,204.915
1735.83,6561.81,3552.71,279.658,171.085,621.0,312.194,28586.5,7668.51,42624.1,7748.65,31632.4,494.826,35894,10248,16646.6,5122.25,2431.47,1243.78,9811.33,3918.79,1810.875,291.376,1233.875,4523.01,20193.9,14354.6,1079.36,440.772,778.733,207.129
1738.98,7772.95,3452.47,1209.32,315.343,2023.0,589.627,29337.3,7416.82,43611.1,7826.97,32761.8,492.207,37829.2,10079.3,17835.9,5266.03,4095.88,928.105,11829.4,4352.3,2491.31,352.337,1815.125,4662.11,21707.7,14213.7,1837.97,569.459,672.067,236.741
1742.13,8949.81,3234.93,2574.55,683.366,3945.48,774.287,29880.5,7131.44,44527.7,7951.15,34117.1,487.435,39859.3,9811.46,19177,5374.24,6036.0,1177.09,14065,4825.28,3216.25,418.179,2573.42,4846.11,23173.9,14062.5,2605.3,707.424,589.267,285.919
1745.28,9996.29,2934.63,4109.68,1304.93,6095.95,869.246,30210.3,6822.5,45309.1,8121.26,35687.1,480.911,41881.6,9480.85,20615.0,5445.58,8080.06,1832.14,16420.4,5312.1,3951.375,478.998,3477.81,5079.26,24495.2,13902.5,3296.36,859.068,585.533,334.089
1748.43,10841.6,2601.16,5585.53,2069.26,8204.57,916.799,30378.4,6504.18,45915.1,8327.77,37418.8,473.2,43806.4,9125.9,22100.3,5485.49,10087.1,2571.7,18794.3,5783.78,4674.0,533.468,4493.29,5349.51,25586.8,13731.3,3867.9,1015.92,711.733,364.226
1751.57,11453.8,2291.08,6838.61,2866.3,10059,980.41,30479.1,6192.87,46332.7,8552.43,39229.9,465.058,45565.5,8777.38,23594.2,5504.18,11969.8,3271.75,21095.2,6211.62,5373.81,584.955,5579.17,5632.26,26392.9,13545.9,4318.3,1163.78,1010.87,364.855
1754.72,11845.8,2054.09,7786.79,3598.5,11530.6,1096.98,30629.8,5904.69,46573.9,8771.52,41025.6,456.921,47118,8453.78,25073.8,5511.16,13700.4,3887.29,23251.6,6571.38,6055.125,640.484,6692.77,5898.38,26900.1,13347.3,4680.48,1289.49,1512.53,335.274
1757.87,12072.2,1912.18,8432.74,4192.01,12583.9,1243.56,30945.2,5651.19,46671.9,8961.58,42717.9,449.412,48453.5,8162.22,26531.9,5513.58,15308.2,4411.83,25217.7,6846.29,6729.94,709.551,7793.23,6122.43,27140.8,13140.9,5010.4,1385.07,2233.2,290.727
1761.02,12219,1854.58,8850.55,4605.33,13274.2,1370.01,31515.5,5436.41,46672.1,9104.74,44242.1,442.602,49589.5,7900.37,27977.2,5513.76,16861.8,4864.71,26976.2,7028.99,7413.25,801.878,8847.02,6289.44,27187.9,12936.7,5373.14,1449.28,3174.73,276.418
1764.17,12387.2,1852.92,9163.0,4834.14,13728.3,1445.73,32388.7,5256.48,46624.0,9193.29,45567.3,436.631,50566.1,7661.02,29427.9,5508.39,18444.3,5280.92,28535.2,7122.12,8116.94,921.579,9832.79,6397.2,27143.3,12748.2,5828.56,1487.94,4326.73,346.924
1767.32,12673.5,1888.74,9512.0,4908.9,14114.4,1484.94,33561.7,5099.32,46572.4,9228.82,46699.7,431.444,51436.5,7433.96,30904.8,5491.77,20129.1,5699.59,29922.8,7136.69,8843.875,1068.25,10744.1,6455.36,27119.5,12589,6420.52,1513.3,5667.33,490.695
1770.47,13153,1959.52,10027.1,4886.4,14608.9,1544.41,34981.6,4948.39,46549.8,9218.46,47678.2,426.621,52255.6,7206.59,32422.6,5456.41,21955.1,6150.32,31179.5,7090.21,9586.19,1235.48,11589.25,6481.77,27219.9,12468.8,7168.96,1542.44,7165.53,666.38
1773.62,13867.4,2067.51,10799.3,4837.16,15359.4,1687.84,36555.4,4783.76,46571.4,9172.08,48562.8,421.733,53068.8,6965.24,33981.1,5397.7,23912.5,6642.25,32350.2,7003.42,10325.75,1414.3,12388.3,6497.48,27521.4,12390.4,8069.06,1593.22,8783.93,845.191
1776.77,14817.6,2203.43,11862.9,4830.55,16458,1928.42,38167.5,4586.43,46633.5,9098.49,49418.2,416.536,53902.1,6699.12,35560,5315.65,25940.4,7157.67,33477.8,6898.14,11037.1,1594.74,13167.4,6522.17,28061.2,12347.9,9092.83,1680.67,10480.5,1009.08
1779.92,15966.1,2341.23,13189.3,4920.8,17923.7,2218.27,39700.3,4341.16,46716.3,9006.53,50298.5,410.513,54757.1,6405.61,37117.5,5216.98,27932.8,7655.23,34598.6,6794.85,11692.9,1769.19,13951.5,6570.02,28831.4,12328,10197.5,1812.33,12211.4,1147.34
1783.07,17246.5,2447.89,14692.2,5137.67,19698.3,2490.44,41054.3,4040.29,46786.4,8905.78,51232.9,403.225,55609,6093.66,38592.7,5115.17,29758.1,8076.52,35740.5,6710.95,12271.625,1931.48,14756.3,6649.03,29782.1,12313.1,11333.5,1986.96,13933.1,1256.81
1786.22,18577.1,2496,16244.1,5482.71,21657,2695.19,42164.4,3686.69,46804.2,8807.12,52218.7,394.809,56412.8,5782.92,39914.8,5028.12,31281.6,8358.63,36923.8,6658.74,12761.2,2079.34,15584.1,6758.67,30831.5,12285.4,12454.2,2195.21,15605.3,1339.98
1789.37,19876.6,2471.91,17697.9,5931.31,23630.4,2812.07,43007.6,3295.19,46729.9,8721.4,53220.5,385.313,57111,5495.57,41014.8,4976.27,32393.1,8445.85,38162.8,6643.82,13162.75,2213.74,16419.1,6891.05,31881.2,12229.8,13523.0,2422.88,17194.3,1404.76
1792.52,21080.8,2381.79,18914.1,6437.63,25434.7,2849.6,43605.1,2889.95,46530.5,8654.09,54177.9,375.011,57647.1,5245.53,41838.4,4977.44,33027.1,8300.61,39468.7,6663.87,13492.4,2337.53,17229.4,7030.39,32834.6,12135.6,14518.6,2653.15,18674.5,1461.57
1795.67,22152,2249.13,19783.2,6944.17,26904.2,2838.09,44012.4,2501.91,46183.8,8601.86,55018.7,364.556,57978.5,5030.77,42360.8,5042.76,33176.2,7911.7,40851.6,6709.18,13777.2,2455.37,17971,7156.63,33614.2,11996.8,15435.5,2869.63,20031.8,1520.9
1798.82,23084.4,2111.83,20243.9,7393.41,27919,2818.06,44306.9,2161.09,45682.6,8551.28,55674.6,354.442,58087.6,4838.08,42593.8,5174.43,32896.6,7296.82,42320.9,6766.24,14051.125,2572.77,18595.1,7249.19,34174.3,11813.5,16281.2,3058.73,21263.6,1589.86
1801.97,23902.9,2010.9,20292.4,7738.76,28426.3,2830.88,44570.4,1889.62,45033.1,8484.62,56096.8,345.537,57989.2,4656.24,42590.7,5363.02,32299.3,6504.05,43883.7,6820.82,14348.4,2694,19058.25,7293.34,34507.5,11593.5,17071.5,3211.83,22379.1,1671.56
1805.12,24654.1,1974.59,19981.5,7954.54,28448.2,2913.89,44872.5,1696.19,44254.5,8385.49,56268,338.453,57730.8,4491.03,42441.2,5589.11,31532.4,5607.82,45541.3,6862.67,14697.1,2822.11,19330.1,7284.39,34645.5,11352.5,17824.2,3327.62,23397.6,1765.55
1808.27,25394.7,2006.05,19411.0,8040.44,28077.7,3095.93,45258,1575.58,43374.7,8246.06,56207.8,333.958,57387.8,4369.51,42260.9,5824.57,30759.9,4701.44,47285.1,6886.78,15113.25,2958.34,19401.8,7230.69,34649.8,11114.3,18552.7,3412.07,24345.2,1869.58
1811.42,26176,2085.81,18710.3,8020.65,27462.6,3393.23,45740.6,1515.44,42426.5,8068.5,55969.7,332.327,57051.4,4328.34,42175.8,6038.11,30135.5,3890.66,49092.3,6894.01,15599.6,3101.14,19290.3,7151.47,34600.7,10905.4,19262.1,3477.95,25251.7,1979.09
1814.57,27033.1,2186.76,18019.5,7938.3,26779.8,3799.43,46303.4,1501.72,41441.6,7863.25,55633.5,333.514,56814.2,4387.06,42302,6199.3,29780.4,3277.44,50923.4,6887.68,16143.8,3247.44,19037.625,7072.33,34580.5,10748.6,19947.2,3541.82,26145.4,2090.67
1817.72,27975.1,2287.05,17467.4,7844.82,26207.8,4283.51,46906.4,1520.8,40448.7,7643.82,55289.4,336.716,56753.8,4528.73,42727.2,6283.54,29767.8,2933.03,52722.4,6871.49,16722.8,3392.29,18707,7017.3,34658.8,10654.1,20594.3,3620.62,27049.1,2199.88
1820.87,28981.3,2375.38,17155.3,7789.5,25897.7,4796.1,47499.2,1561.63,39469.1,7422.47,55022.9,340.629,56919.2,4704.52,43496.6,6276.25,30116.6,2857.54,54420,6846.62,17306.1,3530.07,18375.9,7003.02,34880.1,10614.8,21184.8,3727.74,27977.3,2303.47
1824.02,30006.8,2449.83,17146.2,7808.24,25952.3,5283.36,48035.1,1619.62,38516.4,7208.82,54899.1,344.207,57321.8,4858.11,44606.1,6175.01,30794.8,2987.03,55941.2,6811.49,17862.9,3656.36,18125.125,7034.72,35256.5,10610.2,21700.5,3869.63,28935.1,2399.64
1827.17,30989.0,2514.56,17460.7,7917.1,26414.3,5699.15,48485,1704.61,37597.2,7010.74,54952.6,345.828,57933.5,4948.25,46002.2,5989.72,31730.5,3252.66,57214.8,6763.06,18367.375,3767.15,18028.625,7107.19,35766.6,10612.2,22129.6,4046.06,29918.0,2489.01
1830.31,31862,2576.93,18080.6,8110.39,27264.1,6014.37,48845.6,1840.73,36712.2,6836.49,55183.2,344.712,58692.7,4960.34,47592.7,5739.4,32830.9,3616.46,58184.6,6699.68,18802.6,3860.99,18144,7208.23,36362.3,10596,22472.0,4250.33,30915.7,2574.63
1833.46,32570,2644.21,18958.1,8362.71,28430.1,6219.89,49143.1,2054.89,35859.8,6695.18,55559.1,340.464,59516.4,4906.01,49263,5449.55,34000.6,4062.72,58820,6623.33,19162.25,3937.49,18506,7321.96,36977.6,10545.8,22741.0,4471.5,31914.3,2661.24
1836.61,33080,2721.91,20029.3,8634.15,29807.1,6326.74,49429.6,2358.93,35037.6,6594.26,56025.5,333.385,60315.7,4814.11,50896.8,5146.26,35161.2,4580.03,59123,6540.45,19451.7,3998.35,19123.4,7431.5,37543.3,10456.3,22964.5,4697.44,32901.6,2754.2
1839.76,33389.9,2810.12,21227.4,8879.06,31277,6361.21,49773.6,2739.66,34245.5,6536.4,56518.7,324.59,61013.5,4720.11,52396,4852.29,36262.6,5151.48,59132,6461.82,19684.2,4046.25,19979.125,7519.72,38000.7,10332,23181.6,4915.98,33870.7,2858.43
1842.91,33531.3,2905.15,22496,9054.99,32733.8,6357.78,50244.9,3166.57,33486.9,6517.14,56979.4,315.377,61558.8,4654.43,53695.9,4583.05,37289.1,5755.6,58918.1,6399.78,19878.2,4084.57,21035.5,7572,38312.5,10183.7,23437.5,5117.86,34823.1,2976.21
1846.06,33565,2999.44,23795.5,9130.79,34099.7,6351.01,50900.3,3604.28,32768.5,6525.67,57364,307.357,61935.2,4637.6,54774.3,4344.82,38257.1,6368.84,58576,6364.89,20052.75,4116.96,22240.8,7578.61,38471.4,10025.6,23777,5297.38,35767.3,3107.36
1849.21,33571.6,3085.03,25108.6,9093.77,35337.2,6367.13,51768.7,4022.7,32100.8,6548.63,57651.9,302.19,62161.8,4678.56,55650.2,4135.82,39203.2,6969.39,58210.6,6364.29,20224.25,4146.56,23537,7536.43,38500.7,9874.04,24238,5453.84,36719.3,3250.25
1852.36,33637.7,3155.67,26437.4,8951.16,36450.8,6418.03,52842.6,4402.02,31494.2,6572.83,57845.8,300.945,62285.9,4775.9,56372.9,3948.13,40171.3,7536.51,57919.1,6400,20404.625,4175.87,24868.4,7450.79,38451.4,9743.52,24845.8,5590.95,37696.3,3401.07
1855.51,33839.9,3208.87,27796.8,8728.8,37480.0,6495.77,54073.6,4734.03,30958.1,6587.92,57965.9,303.556,62369.1,4916.75,57005.6,3772.13,41193.7,8053.62,57773.5,6469.5,20600.875,4205.35,26187.2,7334.94,38392.1,9643.39,25609.9,5715.82,38711.5,3555.55
1858.66,34231,3246.27,29206.9,8464.29,38485,6574.78,55376.3,5020.12,30496.6,6587.35,58040.0,309.039,62469.5,5076.92,57603.7,3601.05,42278.1,8507.43,57805,6565.69,20816.25,4234.91,27458,7205.9,38398.9,9573.95,26522.1,5837.09,39768.1,3709.3
1861.81,34828.6,3272.25,30682.7,8199.68,39530.0,6617.42,56637.7,5267.72,30107.4,6568.97,58090.6,315.4,62623.0,5222.95,58196.3,3434.55,43394.8,8890.38,57995,6676.46,21052.0,4263.27,28659.1,7079.88,38540.8,9523.88,27560.1,5962.16,40853.3,3858.63
1864.96,35612.2,3293.2,32226.7,7972.19,40664.6,6583.74,57730.4,5485.45,29779.1,6536.7,58125.4,319.12,62830.3,5320.36,58770.3,3282.7,44477.0,9202.04,58272.5,6783.18,21309.6,4288.89,29781,6969.11,38868.6,9471.43,28689.5,6096.08,41934.7,3999.82
1868.11,36523.6,3315.71,33823.9,7807.33,41911.1,6443.79,58528.7,5677.54,29490.5,6499.5,58130.7,316.56,63049,5341.68,59267.1,3165.64,45422.4,9450.2,58520.7,6861.3,21592.6,4310.4,30824.0,6878.96,39407.1,9390.39,29870.9,6239.67,42960.3,4131.31
1871.26,37475.2,3345.39,35440.9,7715.52,43256,6183.99,58923.4,5841.88,29211.5,6469.89,58070.9,303.69,63196.7,5276.17,59586.2,3112.43,46107.8,9649.83,58591.7,6884.11,21906.3,4326.99,31794.2,6809.23,40150.9,9258.09,31064.8,6390.12,43861.2,4252.6
1874.41,38365.5,3386.11,37028.9,7691.16,44652.3,5813.32,58833.7,5968.52,28904.7,6457.21,57896,279.272,63162,5132.54,59603.3,3158,46405.8,9821.22,58327.8,6830.66,22257.3,4338.93,32700.3,6756.57,41066.7,9060.83,32237.3,6541.29,44558.7,4363.71
1877.56,39093.7,3441.46,38531.3,7715.85,46025.9,5361.28,58213.9,6041.8,28529.3,6462.78,57554.5,247.007,62825.5,4940.94,59192.5,3337.78,46205.2,9989.81,57585.9,6696.68,22649.4,4346.82,33550.3,6716.95,42098.9,8796.45,33363.4,6684.82,44973.7,4466.1
1880.71,39576.1,3516.44,39891,7762.64,47290.7,4872.7,57055.3,6044.27,28044.2,6475.14,57008,220.688,62082.7,4749.02,58255.5,3680.75,45431.2,10182.4,56262.3,6506.55,23082.125,4351.93,34350.8,6687.34,43179.6,8473.21,34430,6812.72,45037.9,4561.18
1883.86,39761.9,3618.62,41061.3,7803.16,48365.5,4399.33,55382.8,5959.53,27413.1,6472.72,56247.9,226.078,60867.3,4616.37,56744.9,4203.04,44061.2,10425.7,54312.9,6319.99,23548.4,4356.68,35107,6665.5,44240.5,8105.21,35434.9,6919.01,44704.0,4649.84
1887.01,39640.5,3760.35,42012.8,7813.75,49189.3,3988.37,53247.5,5778.19,26608.8,6430.47,55305,277.459,59171.1,4607.01,54685.5,4901.07,42133.5,10741,51766.4,6226.25,24032.625,4363.15,35824.6,6649.95,45223.4,7708.26,36386.2,7002.44,43954.7,4732.52
1890.16,39246,3954.6,42738.3,7780.98,49734.1,3676.27,50718.7,5499.01,25617.3,6327.74,54254.3,359.837,57053.4,4774.63,52180.1,5748.1,39750.3,11139.5,48727.3,6313.83,24513.2,4373.7,36511.2,6640.86,46089.4,7296.44,37299.2,7067.1,42809.5,4808.72
1893.31,38653.3,4210.7,43256.2,7704.83,50011.0,3483.81,47873.4,5131.78,24440.9,6153.76,53209.1,450.117,54639.9,5144.48,49404.5,6696.05,37069.4,11615.1,45370,6624.35,24967.1,4391.09,37178.625,6638.87,46824.2,6881.58,38193.3,7123.1,41323.5,4876.64
1896.46,37968.8,4527.91,43605.9,7597.35,50067.5,3417.85,44790.1,4696.38,23099.6,5907.76,52307.9,530.144,52110.4,5702.19,46588.5,7679.84,34292.2,12142.5,41921.3,7125.78,25374.625,4416.31,37844.3,6646.69,47439.2,6473.69,39090,7185.04,39585.9,4934.61
1899.61,37316.4,4892.03,43844.2,7479.51,49980.1,3469.25,41543.8,4219.87,21630.5,5597.98,51691.7,586.741,49675.8,6395.85,43986.4,8624.93,31643.2,12679,38636.7,7732.03,25727.8,4449.86,38530.125,6668.42,47968.5,6081.42,40009.8,7269.55,37710.7,4980.43
1902.76,36821.8,5277.07,44036.1,7373.93,49840.4,3612.2,38203.4,3734.1,20086.2,5237.53,51482.4,611.147,47550.2,7148.54,41843.7,9455.92,29347.5,13171,35771.9,8344.49,26036.3,4489.51,39261.6,6708.15,48461.9,5711.07,40970.8,7392.04,35826.7,5012.8
1905.91,36596.8,5649.07,44246.1,7300.55,49737.9,3805.82,34832.7,3270.67,18530.2,4842.66,51758.3,599.111,45920.6,7871.71,40360.8,10105.8,27609.6,13563.4,33554.9,8883.33,26331.6,4533.28,40065.2,6768.78,48976.5,5363.05,41988.8,7563.01,34062.4,5030.88
1909.06,36726.2,5972.74,44529.8,7271.73,49745.3,4002.59,31491.3,2856.98,17031.4,4432.72,52538.4,551.594,44921.4,8476.34,39666.5,10523.3,26592.8,13808.2,32160.8,9299.13,26668.875,4577.66,40963.3,6849.03,49567.1,5030.38,43075.8,7785.91,32534.7,5036.4
1912.2,37258,6217.14,44926.6,7289.34,49907.1,4157.91,28236.8,2512.64,15658,4030.96,53775.2,474.663,44616.4,8882.85,39800.3,10679.2,26404.4,13872.1,31694.5,9571.2,27121.0,4619.49,41972.0,6943.13,50277.5,4699.83,44240,8055.65,31336.6,5031.98
1915.35,38199.5,6359.33,45455.8,7345.64,50233.1,4240.04,25124.6,2246.28,14469.5,3664.21,55359,378.912,44992.2,9030.14,40709.5,10569.4,27086.2,13739.9,32181.5,9699.38,27771.25,4655.91,43096.4,7039.95,51133.3,4357.34,45485,8359.13,30529.4,5022.99
1918.5,39519.3,6387.27,46115.4,7423.62,50699.0,4235.06,22207.4,2054.73,13509.5,3358.67,57133.4,280.811,45963.8,8882.38,42260.2,10213.6,28612.8,13416.1,33568.7,9693.54,28699.625,4684.08,44329.2,7125.05,52139.5,3996.86,46808.9,8677.41,30137.9,5013.82
1921.65,41151.8,6301.63,46883.6,7500.92,51255.3,4149.06,19531.8,1925.7,12801.0,3133.22,58919.6,204.605,47390.3,8434.32,44260.5,9653.25,30894.6,12924.1,35733.7,9565.97,29968.6,4701.58,45649.9,7184.11,53278.7,3629.88,48202.2,8988.79,30151.0,5009.6
1924.8,43007,6114.46,47723.1,7555.77,51836.8,4006.25,17133.5,1845.08,12342.1,2994.41,60544.4,179.378,49098.3,7715,46491.4,8945.37,33787.1,12303.2,38501.3,9329.39,31608.25,4706.71,47025.3,7206.17,54514.5,3293.35,49646.7,9272.26,30524.3,5013.86
1927.95,44981,5849.73,48586.6,7572.53,52377.7,3843.52,15033.8,1802.14,12104.1,2937.76,61868.7,202.312,50908,6787.71,48739.5,8155.53,37103.4,11605.1,41663.1,9000.19,33605.75,4698.54,48412.4,7187.77,55795.4,3046.64,51114,9510.55,31188.3,5027.52
1931.1,46966.5,5539.96,49422.4,7547.07,52823.8,3703.1,13235.4,1795.61,12033.2,2953.77,62808.9,236.884,52657.3,5749.52,50825.1,7351.35,40630.2,10889.6,44998.75,8604.48,35898.7,4678.03,49761.1,7134.49,57060.8,2949.57,52565.4,9693.23,32056.1,5050.07
1934.25,48862.6,5223.28,50180.5,7487.81,53141.5,3618.9,11721.5,1828.65,12054.5,3029.18,63347.8,261.48,54220,4725.78,52622.6,6596.08,44141.8,10220.9,48294,8181.26,38376.9,4647.61,51018.8,7060.2,58247,3015.47,53952.7,9816.74,33032.6,5078.02
1937.4,50580.5,4938.46,50815.6,7412.95,53321.9,3607.46,10456.8,1901.79,12078.7,3140.97,63534.8,270.902,55514.8,3857.15,54068.3,5944.51,47416.6,9662.34,51355.7,7779.45,40890.8,4610.64,52133.1,6984.53,59292.7,3187.18,55220.9,9884.71,34022.2,5106.63
1940.55,52047.7,4719.58,51291.2,7344.07,53379.3,3663.95,9393.37,2005.1,12010.8,3248.33,63472.4,268.006,56505.0,3259.19,55155.0,5439.31,50250.3,9272.53,54021.3,7447.45,43266.6,4571.39,53056.5,6928.67,60143.3,3364.77,56312.2,9905.74,34938.2,5128.99
1943.7,53209.5,4591.9,51578.9,7299.96,53343.8,3771.82,8477.22,2117.85,11758.7,3297.39,63293.0,259.041,57189.2,2955.11,55917.8,5111.32,52466.6,9099.89,56163.2,7221.34,45327.75,4534.49,53748,6912.04,60753.2,3449.88,57170.7,9891.3,35705.4,5138.01
1946.85,54027.7,4571.42,51659.4,7294.16,53252.1,3920.46,7657.11,2214.45,11243.9,3232.1,63131.2,249.853,57587.3,2876.08,56412.5,4979.75,53926.2,9179.74,57688.9,7120.62,46915.625,4503.34,54176,6952.03,61087.6,3373.61,57748.1,9853.86,36265.7,5127.01
1950.0,54478.3,4667.99,51520.4,7340.07,53136,4121.33,6892.96,2273.47,10408.8,3014.29,63095.9,245.099,57724.3,3004.35,56692.5,5055.36,54532.5,9533.81,58538.9,7157.59,47911.25,4480.83,54318.3,7066.36,61123.9,3118.85,58009.5,9805.47,36579.1,5092.21